stimulus,category,trials.thisRepN,trials.thisTrialN,trials.thisN,trials.thisIndex,instrConf.keys,instrConf.rt,date,frameRate,expName,session,participant,
,,,,,,space,0.768316030502,2018_Jan_27_1649,59.96000097209932,rsvp,001,1,
B,letter,0,0,0,1,,,2018_Jan_27_1649,59.96000097209932,rsvp,001,1,
6,number,0,1,1,31,,,2018_Jan_27_1649,59.96000097209932,rsvp,001,1,
F,letter,0,2,2,5,,,2018_Jan_27_1649,59.96000097209932,rsvp,001,1,
C,letter,0,3,3,2,,,2018_Jan_27_1649,59.96000097209932,rsvp,001,1,
2,number,0,4,4,27,,,2018_Jan_27_1649,59.96000097209932,rsvp,001,1,
M,letter,0,5,5,12,,,2018_Jan_27_1649,59.96000097209932,rsvp,001,1,
5,number,0,6,6,30,,,2018_Jan_27_1649,59.96000097209932,rsvp,001,1,
K,letter,0,7,7,10,,,2018_Jan_27_1649,59.96000097209932,rsvp,001,1,
U,letter,0,8,8,20,,,2018_Jan_27_1649,59.96000097209932,rsvp,001,1,
V,letter,0,9,9,21,,,2018_Jan_27_1649,59.96000097209932,rsvp,001,1,
O,letter,0,10,10,14,,,2018_Jan_27_1649,59.96000097209932,rsvp,001,1,
I,letter,0,11,11,8,,,2018_Jan_27_1649,59.96000097209932,rsvp,001,1,
E,letter,0,12,12,4,,,2018_Jan_27_1649,59.96000097209932,rsvp,001,1,
P,letter,0,13,13,15,,,2018_Jan_27_1649,59.96000097209932,rsvp,001,1,
Y,letter,0,14,14,24,,,2018_Jan_27_1649,59.96000097209932,rsvp,001,1,
probe,probe,0,15,15,35,,,2018_Jan_27_1649,59.96000097209932,rsvp,001,1,
H,letter,0,16,16,7,,,2018_Jan_27_1649,59.96000097209932,rsvp,001,1,
J,letter,0,17,17,9,,,2018_Jan_27_1649,59.96000097209932,rsvp,001,1,
4,number,0,18,18,29,,,2018_Jan_27_1649,59.96000097209932,rsvp,001,1,
S,letter,0,19,19,18,,,2018_Jan_27_1649,59.96000097209932,rsvp,001,1,
3,number,0,20,20,28,,,2018_Jan_27_1649,59.96000097209932,rsvp,001,1,
Q,letter,0,21,21,16,,,2018_Jan_27_1649,59.96000097209932,rsvp,001,1,
R,letter,0,22,22,17,,,2018_Jan_27_1649,59.96000097209932,rsvp,001,1,
G,letter,0,23,23,6,,,2018_Jan_27_1649,59.96000097209932,rsvp,001,1,
None,blank,0,24,24,36,,,2018_Jan_27_1649,59.96000097209932,rsvp,001,1,
8,number,0,25,25,33,,,2018_Jan_27_1649,59.96000097209932,rsvp,001,1,
A,letter,0,26,26,0,,,2018_Jan_27_1649,59.96000097209932,rsvp,001,1,
Z,letter,0,27,27,25,,,2018_Jan_27_1649,59.96000097209932,rsvp,001,1,
D,letter,0,28,28,3,,,2018_Jan_27_1649,59.96000097209932,rsvp,001,1,
L,letter,0,29,29,11,,,2018_Jan_27_1649,59.96000097209932,rsvp,001,1,
T,letter,0,30,30,19,,,2018_Jan_27_1649,59.96000097209932,rsvp,001,1,
X,letter,0,31,31,23,,,2018_Jan_27_1649,59.96000097209932,rsvp,001,1,
W,letter,0,32,32,22,,,2018_Jan_27_1649,59.96000097209932,rsvp,001,1,
7,number,0,33,33,32,,,2018_Jan_27_1649,59.96000097209932,rsvp,001,1,
N,letter,0,34,34,13,,,2018_Jan_27_1649,59.96000097209932,rsvp,001,1,
9,number,0,35,35,34,,,2018_Jan_27_1649,59.96000097209932,rsvp,001,1,
1,number,0,36,36,26,,,2018_Jan_27_1649,59.96000097209932,rsvp,001,1,
2,number,1,0,37,27,,,2018_Jan_27_1649,59.96000097209932,rsvp,001,1,
6,number,1,1,38,31,,,2018_Jan_27_1649,59.96000097209932,rsvp,001,1,
U,letter,1,2,39,20,,,2018_Jan_27_1649,59.96000097209932,rsvp,001,1,
B,letter,1,3,40,1,,,2018_Jan_27_1649,59.96000097209932,rsvp,001,1,
O,letter,1,4,41,14,,,2018_Jan_27_1649,59.96000097209932,rsvp,001,1,
1,number,1,5,42,26,,,2018_Jan_27_1649,59.96000097209932,rsvp,001,1,
L,letter,1,6,43,11,,,2018_Jan_27_1649,59.96000097209932,rsvp,001,1,
8,number,1,7,44,33,,,2018_Jan_27_1649,59.96000097209932,rsvp,001,1,
W,letter,1,8,45,22,,,2018_Jan_27_1649,59.96000097209932,rsvp,001,1,
4,number,1,9,46,29,,,2018_Jan_27_1649,59.96000097209932,rsvp,001,1,
7,number,1,10,47,32,,,2018_Jan_27_1649,59.96000097209932,rsvp,001,1,
G,letter,1,11,48,6,,,2018_Jan_27_1649,59.96000097209932,rsvp,001,1,
Q,letter,1,12,49,16,,,2018_Jan_27_1649,59.96000097209932,rsvp,001,1,
F,letter,1,13,50,5,,,2018_Jan_27_1649,59.96000097209932,rsvp,001,1,
X,letter,1,14,51,23,,,2018_Jan_27_1649,59.96000097209932,rsvp,001,1,
A,letter,1,15,52,0,,,2018_Jan_27_1649,59.96000097209932,rsvp,001,1,
J,letter,1,16,53,9,,,2018_Jan_27_1649,59.96000097209932,rsvp,001,1,
S,letter,1,17,54,18,,,2018_Jan_27_1649,59.96000097209932,rsvp,001,1,
3,number,1,18,55,28,,,2018_Jan_27_1649,59.96000097209932,rsvp,001,1,
P,letter,1,19,56,15,,,2018_Jan_27_1649,59.96000097209932,rsvp,001,1,
Y,letter,1,20,57,24,,,2018_Jan_27_1649,59.96000097209932,rsvp,001,1,
D,letter,1,21,58,3,,,2018_Jan_27_1649,59.96000097209932,rsvp,001,1,
C,letter,1,22,59,2,,,2018_Jan_27_1649,59.96000097209932,rsvp,001,1,
probe,probe,1,23,60,35,,,2018_Jan_27_1649,59.96000097209932,rsvp,001,1,
N,letter,1,24,61,13,,,2018_Jan_27_1649,59.96000097209932,rsvp,001,1,
None,blank,1,25,62,36,,,2018_Jan_27_1649,59.96000097209932,rsvp,001,1,
R,letter,1,26,63,17,,,2018_Jan_27_1649,59.96000097209932,rsvp,001,1,
K,letter,1,27,64,10,,,2018_Jan_27_1649,59.96000097209932,rsvp,001,1,
5,number,1,28,65,30,,,2018_Jan_27_1649,59.96000097209932,rsvp,001,1,
E,letter,1,29,66,4,,,2018_Jan_27_1649,59.96000097209932,rsvp,001,1,
M,letter,1,30,67,12,,,2018_Jan_27_1649,59.96000097209932,rsvp,001,1,
H,letter,1,31,68,7,,,2018_Jan_27_1649,59.96000097209932,rsvp,001,1,
T,letter,1,32,69,19,,,2018_Jan_27_1649,59.96000097209932,rsvp,001,1,
Z,letter,1,33,70,25,,,2018_Jan_27_1649,59.96000097209932,rsvp,001,1,
I,letter,1,34,71,8,,,2018_Jan_27_1649,59.96000097209932,rsvp,001,1,
V,letter,1,35,72,21,,,2018_Jan_27_1649,59.96000097209932,rsvp,001,1,
9,number,1,36,73,34,,,2018_Jan_27_1649,59.96000097209932,rsvp,001,1,
Y,letter,2,0,74,24,,,2018_Jan_27_1649,59.96000097209932,rsvp,001,1,
B,letter,2,1,75,1,,,2018_Jan_27_1649,59.96000097209932,rsvp,001,1,
X,letter,2,2,76,23,,,2018_Jan_27_1649,59.96000097209932,rsvp,001,1,
6,number,2,3,77,31,,,2018_Jan_27_1649,59.96000097209932,rsvp,001,1,
S,letter,2,4,78,18,,,2018_Jan_27_1649,59.96000097209932,rsvp,001,1,
probe,probe,2,5,79,35,,,2018_Jan_27_1649,59.96000097209932,rsvp,001,1,
8,number,2,6,80,33,,,2018_Jan_27_1649,59.96000097209932,rsvp,001,1,
A,letter,2,7,81,0,,,2018_Jan_27_1649,59.96000097209932,rsvp,001,1,
C,letter,2,8,82,2,,,2018_Jan_27_1649,59.96000097209932,rsvp,001,1,
W,letter,2,9,83,22,,,2018_Jan_27_1649,59.96000097209932,rsvp,001,1,
T,letter,2,10,84,19,,,2018_Jan_27_1649,59.96000097209932,rsvp,001,1,
R,letter,2,11,85,17,,,2018_Jan_27_1649,59.96000097209932,rsvp,001,1,
G,letter,2,12,86,6,,,2018_Jan_27_1649,59.96000097209932,rsvp,001,1,
7,number,2,13,87,32,,,2018_Jan_27_1649,59.96000097209932,rsvp,001,1,
E,letter,2,14,88,4,,,2018_Jan_27_1649,59.96000097209932,rsvp,001,1,
U,letter,2,15,89,20,,,2018_Jan_27_1649,59.96000097209932,rsvp,001,1,
9,number,2,16,90,34,,,2018_Jan_27_1649,59.96000097209932,rsvp,001,1,
Z,letter,2,17,91,25,,,2018_Jan_27_1649,59.96000097209932,rsvp,001,1,
3,number,2,18,92,28,,,2018_Jan_27_1649,59.96000097209932,rsvp,001,1,
F,letter,2,19,93,5,,,2018_Jan_27_1649,59.96000097209932,rsvp,001,1,
O,letter,2,20,94,14,,,2018_Jan_27_1649,59.96000097209932,rsvp,001,1,
D,letter,2,21,95,3,,,2018_Jan_27_1649,59.96000097209932,rsvp,001,1,
None,blank,2,22,96,36,,,2018_Jan_27_1649,59.96000097209932,rsvp,001,1,
H,letter,2,23,97,7,,,2018_Jan_27_1649,59.96000097209932,rsvp,001,1,
M,letter,2,24,98,12,,,2018_Jan_27_1649,59.96000097209932,rsvp,001,1,
1,number,2,25,99,26,,,2018_Jan_27_1649,59.96000097209932,rsvp,001,1,
P,letter,2,26,100,15,,,2018_Jan_27_1649,59.96000097209932,rsvp,001,1,
N,letter,2,27,101,13,,,2018_Jan_27_1649,59.96000097209932,rsvp,001,1,
L,letter,2,28,102,11,,,2018_Jan_27_1649,59.96000097209932,rsvp,001,1,
5,number,2,29,103,30,,,2018_Jan_27_1649,59.96000097209932,rsvp,001,1,
I,letter,2,30,104,8,,,2018_Jan_27_1649,59.96000097209932,rsvp,001,1,
2,number,2,31,105,27,,,2018_Jan_27_1649,59.96000097209932,rsvp,001,1,
4,number,2,32,106,29,,,2018_Jan_27_1649,59.96000097209932,rsvp,001,1,
Q,letter,2,33,107,16,,,2018_Jan_27_1649,59.96000097209932,rsvp,001,1,
J,letter,2,34,108,9,,,2018_Jan_27_1649,59.96000097209932,rsvp,001,1,
K,letter,2,35,109,10,,,2018_Jan_27_1649,59.96000097209932,rsvp,001,1,
V,letter,2,36,110,21,,,2018_Jan_27_1649,59.96000097209932,rsvp,001,1,
J,letter,3,0,111,9,,,2018_Jan_27_1649,59.96000097209932,rsvp,001,1,
D,letter,3,1,112,3,,,2018_Jan_27_1649,59.96000097209932,rsvp,001,1,
P,letter,3,2,113,15,,,2018_Jan_27_1649,59.96000097209932,rsvp,001,1,
B,letter,3,3,114,1,,,2018_Jan_27_1649,59.96000097209932,rsvp,001,1,
L,letter,3,4,115,11,,,2018_Jan_27_1649,59.96000097209932,rsvp,001,1,
probe,probe,3,5,116,35,,,2018_Jan_27_1649,59.96000097209932,rsvp,001,1,
3,number,3,6,117,28,,,2018_Jan_27_1649,59.96000097209932,rsvp,001,1,
X,letter,3,7,118,23,,,2018_Jan_27_1649,59.96000097209932,rsvp,001,1,
H,letter,3,8,119,7,,,2018_Jan_27_1649,59.96000097209932,rsvp,001,1,
G,letter,3,9,120,6,,,2018_Jan_27_1649,59.96000097209932,rsvp,001,1,
I,letter,3,10,121,8,,,2018_Jan_27_1649,59.96000097209932,rsvp,001,1,
2,number,3,11,122,27,,,2018_Jan_27_1649,59.96000097209932,rsvp,001,1,
M,letter,3,12,123,12,,,2018_Jan_27_1649,59.96000097209932,rsvp,001,1,
9,number,3,13,124,34,,,2018_Jan_27_1649,59.96000097209932,rsvp,001,1,
A,letter,3,14,125,0,,,2018_Jan_27_1649,59.96000097209932,rsvp,001,1,
5,number,3,15,126,30,,,2018_Jan_27_1649,59.96000097209932,rsvp,001,1,
N,letter,3,16,127,13,,,2018_Jan_27_1649,59.96000097209932,rsvp,001,1,
R,letter,3,17,128,17,,,2018_Jan_27_1649,59.96000097209932,rsvp,001,1,
6,number,3,18,129,31,,,2018_Jan_27_1649,59.96000097209932,rsvp,001,1,
E,letter,3,19,130,4,,,2018_Jan_27_1649,59.96000097209932,rsvp,001,1,
1,number,3,20,131,26,,,2018_Jan_27_1649,59.96000097209932,rsvp,001,1,
T,letter,3,21,132,19,,,2018_Jan_27_1649,59.96000097209932,rsvp,001,1,
F,letter,3,22,133,5,,,2018_Jan_27_1649,59.96000097209932,rsvp,001,1,
Q,letter,3,23,134,16,,,2018_Jan_27_1649,59.96000097209932,rsvp,001,1,
K,letter,3,24,135,10,,,2018_Jan_27_1649,59.96000097209932,rsvp,001,1,
Z,letter,3,25,136,25,,,2018_Jan_27_1649,59.96000097209932,rsvp,001,1,
None,blank,3,26,137,36,,,2018_Jan_27_1649,59.96000097209932,rsvp,001,1,
S,letter,3,27,138,18,,,2018_Jan_27_1649,59.96000097209932,rsvp,001,1,
W,letter,3,28,139,22,,,2018_Jan_27_1649,59.96000097209932,rsvp,001,1,
O,letter,3,29,140,14,,,2018_Jan_27_1649,59.96000097209932,rsvp,001,1,
C,letter,3,30,141,2,,,2018_Jan_27_1649,59.96000097209932,rsvp,001,1,
U,letter,3,31,142,20,,,2018_Jan_27_1649,59.96000097209932,rsvp,001,1,
V,letter,3,32,143,21,,,2018_Jan_27_1649,59.96000097209932,rsvp,001,1,
Y,letter,3,33,144,24,,,2018_Jan_27_1649,59.96000097209932,rsvp,001,1,
7,number,3,34,145,32,,,2018_Jan_27_1649,59.96000097209932,rsvp,001,1,
8,number,3,35,146,33,,,2018_Jan_27_1649,59.96000097209932,rsvp,001,1,
4,number,3,36,147,29,,,2018_Jan_27_1649,59.96000097209932,rsvp,001,1,
9,number,4,0,148,34,,,2018_Jan_27_1649,59.96000097209932,rsvp,001,1,
probe,probe,4,1,149,35,,,2018_Jan_27_1649,59.96000097209932,rsvp,001,1,
O,letter,4,2,150,14,,,2018_Jan_27_1649,59.96000097209932,rsvp,001,1,
B,letter,4,3,151,1,,,2018_Jan_27_1649,59.96000097209932,rsvp,001,1,
8,number,4,4,152,33,,,2018_Jan_27_1649,59.96000097209932,rsvp,001,1,
C,letter,4,5,153,2,,,2018_Jan_27_1649,59.96000097209932,rsvp,001,1,
Q,letter,4,6,154,16,,,2018_Jan_27_1649,59.96000097209932,rsvp,001,1,
M,letter,4,7,155,12,,,2018_Jan_27_1649,59.96000097209932,rsvp,001,1,
S,letter,4,8,156,18,,,2018_Jan_27_1649,59.96000097209932,rsvp,001,1,
N,letter,4,9,157,13,,,2018_Jan_27_1649,59.96000097209932,rsvp,001,1,
3,number,4,10,158,28,,,2018_Jan_27_1649,59.96000097209932,rsvp,001,1,
V,letter,4,11,159,21,,,2018_Jan_27_1649,59.96000097209932,rsvp,001,1,
G,letter,4,12,160,6,,,2018_Jan_27_1649,59.96000097209932,rsvp,001,1,
X,letter,4,13,161,23,,,2018_Jan_27_1649,59.96000097209932,rsvp,001,1,
1,number,4,14,162,26,,,2018_Jan_27_1649,59.96000097209932,rsvp,001,1,
D,letter,4,15,163,3,,,2018_Jan_27_1649,59.96000097209932,rsvp,001,1,
I,letter,4,16,164,8,,,2018_Jan_27_1649,59.96000097209932,rsvp,001,1,
E,letter,4,17,165,4,,,2018_Jan_27_1649,59.96000097209932,rsvp,001,1,
W,letter,4,18,166,22,,,2018_Jan_27_1649,59.96000097209932,rsvp,001,1,
Z,letter,4,19,167,25,,,2018_Jan_27_1649,59.96000097209932,rsvp,001,1,
P,letter,4,20,168,15,,,2018_Jan_27_1649,59.96000097209932,rsvp,001,1,
None,blank,4,21,169,36,,,2018_Jan_27_1649,59.96000097209932,rsvp,001,1,
T,letter,4,22,170,19,,,2018_Jan_27_1649,59.96000097209932,rsvp,001,1,
7,number,4,23,171,32,,,2018_Jan_27_1649,59.96000097209932,rsvp,001,1,
J,letter,4,24,172,9,,,2018_Jan_27_1649,59.96000097209932,rsvp,001,1,
2,number,4,25,173,27,,,2018_Jan_27_1649,59.96000097209932,rsvp,001,1,
K,letter,4,26,174,10,,,2018_Jan_27_1649,59.96000097209932,rsvp,001,1,
Y,letter,4,27,175,24,,,2018_Jan_27_1649,59.96000097209932,rsvp,001,1,
U,letter,4,28,176,20,,,2018_Jan_27_1649,59.96000097209932,rsvp,001,1,
4,number,4,29,177,29,,,2018_Jan_27_1649,59.96000097209932,rsvp,001,1,
H,letter,4,30,178,7,,,2018_Jan_27_1649,59.96000097209932,rsvp,001,1,
A,letter,4,31,179,0,,,2018_Jan_27_1649,59.96000097209932,rsvp,001,1,
6,number,4,32,180,31,,,2018_Jan_27_1649,59.96000097209932,rsvp,001,1,
L,letter,4,33,181,11,,,2018_Jan_27_1649,59.96000097209932,rsvp,001,1,
F,letter,4,34,182,5,,,2018_Jan_27_1649,59.96000097209932,rsvp,001,1,
R,letter,4,35,183,17,,,2018_Jan_27_1649,59.96000097209932,rsvp,001,1,
5,number,4,36,184,30,,,2018_Jan_27_1649,59.96000097209932,rsvp,001,1,
5,number,5,0,185,30,,,2018_Jan_27_1649,59.96000097209932,rsvp,001,1,
A,letter,5,1,186,0,,,2018_Jan_27_1649,59.96000097209932,rsvp,001,1,
U,letter,5,2,187,20,,,2018_Jan_27_1649,59.96000097209932,rsvp,001,1,
B,letter,5,3,188,1,,,2018_Jan_27_1649,59.96000097209932,rsvp,001,1,
1,number,5,4,189,26,,,2018_Jan_27_1649,59.96000097209932,rsvp,001,1,
R,letter,5,5,190,17,,,2018_Jan_27_1649,59.96000097209932,rsvp,001,1,
I,letter,5,6,191,8,,,2018_Jan_27_1649,59.96000097209932,rsvp,001,1,
O,letter,5,7,192,14,,,2018_Jan_27_1649,59.96000097209932,rsvp,001,1,
X,letter,5,8,193,23,,,2018_Jan_27_1649,59.96000097209932,rsvp,001,1,
8,number,5,9,194,33,,,2018_Jan_27_1649,59.96000097209932,rsvp,001,1,
C,letter,5,10,195,2,,,2018_Jan_27_1649,59.96000097209932,rsvp,001,1,
Y,letter,5,11,196,24,,,2018_Jan_27_1649,59.96000097209932,rsvp,001,1,
H,letter,5,12,197,7,,,2018_Jan_27_1649,59.96000097209932,rsvp,001,1,
W,letter,5,13,198,22,,,2018_Jan_27_1649,59.96000097209932,rsvp,001,1,
L,letter,5,14,199,11,,,2018_Jan_27_1649,59.96000097209932,rsvp,001,1,
7,number,5,15,200,32,,,2018_Jan_27_1649,59.96000097209932,rsvp,001,1,
K,letter,5,16,201,10,,,2018_Jan_27_1649,59.96000097209932,rsvp,001,1,
T,letter,5,17,202,19,,,2018_Jan_27_1649,59.96000097209932,rsvp,001,1,
3,number,5,18,203,28,,,2018_Jan_27_1649,59.96000097209932,rsvp,001,1,
J,letter,5,19,204,9,,,2018_Jan_27_1649,59.96000097209932,rsvp,001,1,
D,letter,5,20,205,3,,,2018_Jan_27_1649,59.96000097209932,rsvp,001,1,
V,letter,5,21,206,21,,,2018_Jan_27_1649,59.96000097209932,rsvp,001,1,
Z,letter,5,22,207,25,,,2018_Jan_27_1649,59.96000097209932,rsvp,001,1,
4,number,5,23,208,29,,,2018_Jan_27_1649,59.96000097209932,rsvp,001,1,
6,number,5,24,209,31,,,2018_Jan_27_1649,59.96000097209932,rsvp,001,1,
G,letter,5,25,210,6,,,2018_Jan_27_1649,59.96000097209932,rsvp,001,1,
F,letter,5,26,211,5,,,2018_Jan_27_1649,59.96000097209932,rsvp,001,1,
probe,probe,5,27,212,35,,,2018_Jan_27_1649,59.96000097209932,rsvp,001,1,
2,number,5,28,213,27,,,2018_Jan_27_1649,59.96000097209932,rsvp,001,1,
P,letter,5,29,214,15,,,2018_Jan_27_1649,59.96000097209932,rsvp,001,1,
None,blank,5,30,215,36,,,2018_Jan_27_1649,59.96000097209932,rsvp,001,1,
N,letter,5,31,216,13,,,2018_Jan_27_1649,59.96000097209932,rsvp,001,1,
E,letter,5,32,217,4,,,2018_Jan_27_1649,59.96000097209932,rsvp,001,1,
M,letter,5,33,218,12,,,2018_Jan_27_1649,59.96000097209932,rsvp,001,1,
Q,letter,5,34,219,16,,,2018_Jan_27_1649,59.96000097209932,rsvp,001,1,
9,number,5,35,220,34,,,2018_Jan_27_1649,59.96000097209932,rsvp,001,1,
S,letter,5,36,221,18,,,2018_Jan_27_1649,59.96000097209932,rsvp,001,1,
X,letter,6,0,222,23,,,2018_Jan_27_1649,59.96000097209932,rsvp,001,1,
F,letter,6,1,223,5,,,2018_Jan_27_1649,59.96000097209932,rsvp,001,1,
8,number,6,2,224,33,,,2018_Jan_27_1649,59.96000097209932,rsvp,001,1,
9,number,6,3,225,34,,,2018_Jan_27_1649,59.96000097209932,rsvp,001,1,
G,letter,6,4,226,6,,,2018_Jan_27_1649,59.96000097209932,rsvp,001,1,
W,letter,6,5,227,22,,,2018_Jan_27_1649,59.96000097209932,rsvp,001,1,
Y,letter,6,6,228,24,,,2018_Jan_27_1649,59.96000097209932,rsvp,001,1,
I,letter,6,7,229,8,,,2018_Jan_27_1649,59.96000097209932,rsvp,001,1,
6,number,6,8,230,31,,,2018_Jan_27_1649,59.96000097209932,rsvp,001,1,
A,letter,6,9,231,0,,,2018_Jan_27_1649,59.96000097209932,rsvp,001,1,
B,letter,6,10,232,1,,,2018_Jan_27_1649,59.96000097209932,rsvp,001,1,
C,letter,6,11,233,2,,,2018_Jan_27_1649,59.96000097209932,rsvp,001,1,
K,letter,6,12,234,10,,,2018_Jan_27_1649,59.96000097209932,rsvp,001,1,
D,letter,6,13,235,3,,,2018_Jan_27_1649,59.96000097209932,rsvp,001,1,
T,letter,6,14,236,19,,,2018_Jan_27_1649,59.96000097209932,rsvp,001,1,
E,letter,6,15,237,4,,,2018_Jan_27_1649,59.96000097209932,rsvp,001,1,
probe,probe,6,16,238,35,,,2018_Jan_27_1649,59.96000097209932,rsvp,001,1,
P,letter,6,17,239,15,,,2018_Jan_27_1649,59.96000097209932,rsvp,001,1,
5,number,6,18,240,30,,,2018_Jan_27_1649,59.96000097209932,rsvp,001,1,
S,letter,6,19,241,18,,,2018_Jan_27_1649,59.96000097209932,rsvp,001,1,
R,letter,6,20,242,17,,,2018_Jan_27_1649,59.96000097209932,rsvp,001,1,
None,blank,6,21,243,36,,,2018_Jan_27_1649,59.96000097209932,rsvp,001,1,
V,letter,6,22,244,21,,,2018_Jan_27_1649,59.96000097209932,rsvp,001,1,
O,letter,6,23,245,14,,,2018_Jan_27_1649,59.96000097209932,rsvp,001,1,
J,letter,6,24,246,9,,,2018_Jan_27_1649,59.96000097209932,rsvp,001,1,
H,letter,6,25,247,7,,,2018_Jan_27_1649,59.96000097209932,rsvp,001,1,
4,number,6,26,248,29,,,2018_Jan_27_1649,59.96000097209932,rsvp,001,1,
Z,letter,6,27,249,25,,,2018_Jan_27_1649,59.96000097209932,rsvp,001,1,
1,number,6,28,250,26,,,2018_Jan_27_1649,59.96000097209932,rsvp,001,1,
N,letter,6,29,251,13,,,2018_Jan_27_1649,59.96000097209932,rsvp,001,1,
U,letter,6,30,252,20,,,2018_Jan_27_1649,59.96000097209932,rsvp,001,1,
M,letter,6,31,253,12,,,2018_Jan_27_1649,59.96000097209932,rsvp,001,1,
L,letter,6,32,254,11,,,2018_Jan_27_1649,59.96000097209932,rsvp,001,1,
7,number,6,33,255,32,,,2018_Jan_27_1649,59.96000097209932,rsvp,001,1,
3,number,6,34,256,28,,,2018_Jan_27_1649,59.96000097209932,rsvp,001,1,
2,number,6,35,257,27,,,2018_Jan_27_1649,59.96000097209932,rsvp,001,1,
Q,letter,6,36,258,16,,,2018_Jan_27_1649,59.96000097209932,rsvp,001,1,
G,letter,7,0,259,6,,,2018_Jan_27_1649,59.96000097209932,rsvp,001,1,
3,number,7,1,260,28,,,2018_Jan_27_1649,59.96000097209932,rsvp,001,1,
Y,letter,7,2,261,24,,,2018_Jan_27_1649,59.96000097209932,rsvp,001,1,
L,letter,7,3,262,11,,,2018_Jan_27_1649,59.96000097209932,rsvp,001,1,
Q,letter,7,4,263,16,,,2018_Jan_27_1649,59.96000097209932,rsvp,001,1,
None,blank,7,5,264,36,,,2018_Jan_27_1649,59.96000097209932,rsvp,001,1,
J,letter,7,6,265,9,,,2018_Jan_27_1649,59.96000097209932,rsvp,001,1,
X,letter,7,7,266,23,,,2018_Jan_27_1649,59.96000097209932,rsvp,001,1,
5,number,7,8,267,30,,,2018_Jan_27_1649,59.96000097209932,rsvp,001,1,
N,letter,7,9,268,13,,,2018_Jan_27_1649,59.96000097209932,rsvp,001,1,
O,letter,7,10,269,14,,,2018_Jan_27_1649,59.96000097209932,rsvp,001,1,
P,letter,7,11,270,15,,,2018_Jan_27_1649,59.96000097209932,rsvp,001,1,
probe,probe,7,12,271,35,,,2018_Jan_27_1649,59.96000097209932,rsvp,001,1,
9,number,7,13,272,34,,,2018_Jan_27_1649,59.96000097209932,rsvp,001,1,
M,letter,7,14,273,12,,,2018_Jan_27_1649,59.96000097209932,rsvp,001,1,
I,letter,7,15,274,8,,,2018_Jan_27_1649,59.96000097209932,rsvp,001,1,
V,letter,7,16,275,21,,,2018_Jan_27_1649,59.96000097209932,rsvp,001,1,
6,number,7,17,276,31,,,2018_Jan_27_1649,59.96000097209932,rsvp,001,1,
F,letter,7,18,277,5,,,2018_Jan_27_1649,59.96000097209932,rsvp,001,1,
C,letter,7,19,278,2,,,2018_Jan_27_1649,59.96000097209932,rsvp,001,1,
W,letter,7,20,279,22,,,2018_Jan_27_1649,59.96000097209932,rsvp,001,1,
D,letter,7,21,280,3,,,2018_Jan_27_1649,59.96000097209932,rsvp,001,1,
1,number,7,22,281,26,,,2018_Jan_27_1649,59.96000097209932,rsvp,001,1,
4,number,7,23,282,29,,,2018_Jan_27_1649,59.96000097209932,rsvp,001,1,
R,letter,7,24,283,17,,,2018_Jan_27_1649,59.96000097209932,rsvp,001,1,
A,letter,7,25,284,0,,,2018_Jan_27_1649,59.96000097209932,rsvp,001,1,
Z,letter,7,26,285,25,,,2018_Jan_27_1649,59.96000097209932,rsvp,001,1,
K,letter,7,27,286,10,,,2018_Jan_27_1649,59.96000097209932,rsvp,001,1,
2,number,7,28,287,27,,,2018_Jan_27_1649,59.96000097209932,rsvp,001,1,
B,letter,7,29,288,1,,,2018_Jan_27_1649,59.96000097209932,rsvp,001,1,
8,number,7,30,289,33,,,2018_Jan_27_1649,59.96000097209932,rsvp,001,1,
U,letter,7,31,290,20,,,2018_Jan_27_1649,59.96000097209932,rsvp,001,1,
H,letter,7,32,291,7,,,2018_Jan_27_1649,59.96000097209932,rsvp,001,1,
S,letter,7,33,292,18,,,2018_Jan_27_1649,59.96000097209932,rsvp,001,1,
E,letter,7,34,293,4,,,2018_Jan_27_1649,59.96000097209932,rsvp,001,1,
T,letter,7,35,294,19,,,2018_Jan_27_1649,59.96000097209932,rsvp,001,1,
7,number,7,36,295,32,,,2018_Jan_27_1649,59.96000097209932,rsvp,001,1,
W,letter,8,0,296,22,,,2018_Jan_27_1649,59.96000097209932,rsvp,001,1,
N,letter,8,1,297,13,,,2018_Jan_27_1649,59.96000097209932,rsvp,001,1,
Z,letter,8,2,298,25,,,2018_Jan_27_1649,59.96000097209932,rsvp,001,1,
3,number,8,3,299,28,,,2018_Jan_27_1649,59.96000097209932,rsvp,001,1,
S,letter,8,4,300,18,,,2018_Jan_27_1649,59.96000097209932,rsvp,001,1,
F,letter,8,5,301,5,,,2018_Jan_27_1649,59.96000097209932,rsvp,001,1,
I,letter,8,6,302,8,,,2018_Jan_27_1649,59.96000097209932,rsvp,001,1,
2,number,8,7,303,27,,,2018_Jan_27_1649,59.96000097209932,rsvp,001,1,
B,letter,8,8,304,1,,,2018_Jan_27_1649,59.96000097209932,rsvp,001,1,
M,letter,8,9,305,12,,,2018_Jan_27_1649,59.96000097209932,rsvp,001,1,
U,letter,8,10,306,20,,,2018_Jan_27_1649,59.96000097209932,rsvp,001,1,
Q,letter,8,11,307,16,,,2018_Jan_27_1649,59.96000097209932,rsvp,001,1,
9,number,8,12,308,34,,,2018_Jan_27_1649,59.96000097209932,rsvp,001,1,
7,number,8,13,309,32,,,2018_Jan_27_1649,59.96000097209932,rsvp,001,1,
P,letter,8,14,310,15,,,2018_Jan_27_1649,59.96000097209932,rsvp,001,1,
None,blank,8,15,311,36,,,2018_Jan_27_1649,59.96000097209932,rsvp,001,1,
R,letter,8,16,312,17,,,2018_Jan_27_1649,59.96000097209932,rsvp,001,1,
C,letter,8,17,313,2,,,2018_Jan_27_1649,59.96000097209932,rsvp,001,1,
T,letter,8,18,314,19,,,2018_Jan_27_1649,59.96000097209932,rsvp,001,1,
8,number,8,19,315,33,,,2018_Jan_27_1649,59.96000097209932,rsvp,001,1,
probe,probe,8,20,316,35,,,2018_Jan_27_1649,59.96000097209932,rsvp,001,1,
1,number,8,21,317,26,,,2018_Jan_27_1649,59.96000097209932,rsvp,001,1,
Y,letter,8,22,318,24,,,2018_Jan_27_1649,59.96000097209932,rsvp,001,1,
6,number,8,23,319,31,,,2018_Jan_27_1649,59.96000097209932,rsvp,001,1,
5,number,8,24,320,30,,,2018_Jan_27_1649,59.96000097209932,rsvp,001,1,
H,letter,8,25,321,7,,,2018_Jan_27_1649,59.96000097209932,rsvp,001,1,
J,letter,8,26,322,9,,,2018_Jan_27_1649,59.96000097209932,rsvp,001,1,
O,letter,8,27,323,14,,,2018_Jan_27_1649,59.96000097209932,rsvp,001,1,
X,letter,8,28,324,23,,,2018_Jan_27_1649,59.96000097209932,rsvp,001,1,
K,letter,8,29,325,10,,,2018_Jan_27_1649,59.96000097209932,rsvp,001,1,
4,number,8,30,326,29,,,2018_Jan_27_1649,59.96000097209932,rsvp,001,1,
A,letter,8,31,327,0,,,2018_Jan_27_1649,59.96000097209932,rsvp,001,1,
D,letter,8,32,328,3,,,2018_Jan_27_1649,59.96000097209932,rsvp,001,1,
L,letter,8,33,329,11,,,2018_Jan_27_1649,59.96000097209932,rsvp,001,1,
E,letter,8,34,330,4,,,2018_Jan_27_1649,59.96000097209932,rsvp,001,1,
G,letter,8,35,331,6,,,2018_Jan_27_1649,59.96000097209932,rsvp,001,1,
V,letter,8,36,332,21,,,2018_Jan_27_1649,59.96000097209932,rsvp,001,1,
C,letter,9,0,333,2,,,2018_Jan_27_1649,59.96000097209932,rsvp,001,1,
D,letter,9,1,334,3,,,2018_Jan_27_1649,59.96000097209932,rsvp,001,1,
Y,letter,9,2,335,24,,,2018_Jan_27_1649,59.96000097209932,rsvp,001,1,
B,letter,9,3,336,1,,,2018_Jan_27_1649,59.96000097209932,rsvp,001,1,
Z,letter,9,4,337,25,,,2018_Jan_27_1649,59.96000097209932,rsvp,001,1,
P,letter,9,5,338,15,,,2018_Jan_27_1649,59.96000097209932,rsvp,001,1,
T,letter,9,6,339,19,,,2018_Jan_27_1649,59.96000097209932,rsvp,001,1,
I,letter,9,7,340,8,,,2018_Jan_27_1649,59.96000097209932,rsvp,001,1,
L,letter,9,8,341,11,,,2018_Jan_27_1649,59.96000097209932,rsvp,001,1,
8,number,9,9,342,33,,,2018_Jan_27_1649,59.96000097209932,rsvp,001,1,
A,letter,9,10,343,0,,,2018_Jan_27_1649,59.96000097209932,rsvp,001,1,
5,number,9,11,344,30,,,2018_Jan_27_1649,59.96000097209932,rsvp,001,1,
V,letter,9,12,345,21,,,2018_Jan_27_1649,59.96000097209932,rsvp,001,1,
K,letter,9,13,346,10,,,2018_Jan_27_1649,59.96000097209932,rsvp,001,1,
O,letter,9,14,347,14,,,2018_Jan_27_1649,59.96000097209932,rsvp,001,1,
E,letter,9,15,348,4,,,2018_Jan_27_1649,59.96000097209932,rsvp,001,1,
M,letter,9,16,349,12,,,2018_Jan_27_1649,59.96000097209932,rsvp,001,1,
G,letter,9,17,350,6,,,2018_Jan_27_1649,59.96000097209932,rsvp,001,1,
Q,letter,9,18,351,16,,,2018_Jan_27_1649,59.96000097209932,rsvp,001,1,
probe,probe,9,19,352,35,,,2018_Jan_27_1649,59.96000097209932,rsvp,001,1,
S,letter,9,20,353,18,,,2018_Jan_27_1649,59.96000097209932,rsvp,001,1,
2,number,9,21,354,27,,,2018_Jan_27_1649,59.96000097209932,rsvp,001,1,
None,blank,9,22,355,36,,,2018_Jan_27_1649,59.96000097209932,rsvp,001,1,
J,letter,9,23,356,9,,,2018_Jan_27_1649,59.96000097209932,rsvp,001,1,
7,number,9,24,357,32,,,2018_Jan_27_1649,59.96000097209932,rsvp,001,1,
4,number,9,25,358,29,,,2018_Jan_27_1649,59.96000097209932,rsvp,001,1,
H,letter,9,26,359,7,,,2018_Jan_27_1649,59.96000097209932,rsvp,001,1,
9,number,9,27,360,34,,,2018_Jan_27_1649,59.96000097209932,rsvp,001,1,
3,number,9,28,361,28,,,2018_Jan_27_1649,59.96000097209932,rsvp,001,1,
6,number,9,29,362,31,,,2018_Jan_27_1649,59.96000097209932,rsvp,001,1,
U,letter,9,30,363,20,,,2018_Jan_27_1649,59.96000097209932,rsvp,001,1,
R,letter,9,31,364,17,,,2018_Jan_27_1649,59.96000097209932,rsvp,001,1,
N,letter,9,32,365,13,,,2018_Jan_27_1649,59.96000097209932,rsvp,001,1,
X,letter,9,33,366,23,,,2018_Jan_27_1649,59.96000097209932,rsvp,001,1,
W,letter,9,34,367,22,,,2018_Jan_27_1649,59.96000097209932,rsvp,001,1,
F,letter,9,35,368,5,,,2018_Jan_27_1649,59.96000097209932,rsvp,001,1,
1,number,9,36,369,26,,,2018_Jan_27_1649,59.96000097209932,rsvp,001,1,
E,letter,10,0,370,4,,,2018_Jan_27_1649,59.96000097209932,rsvp,001,1,
6,number,10,1,371,31,,,2018_Jan_27_1649,59.96000097209932,rsvp,001,1,
C,letter,10,2,372,2,,,2018_Jan_27_1649,59.96000097209932,rsvp,001,1,
5,number,10,3,373,30,,,2018_Jan_27_1649,59.96000097209932,rsvp,001,1,
T,letter,10,4,374,19,,,2018_Jan_27_1649,59.96000097209932,rsvp,001,1,
I,letter,10,5,375,8,,,2018_Jan_27_1649,59.96000097209932,rsvp,001,1,
O,letter,10,6,376,14,,,2018_Jan_27_1649,59.96000097209932,rsvp,001,1,
probe,probe,10,7,377,35,,,2018_Jan_27_1649,59.96000097209932,rsvp,001,1,
1,number,10,8,378,26,,,2018_Jan_27_1649,59.96000097209932,rsvp,001,1,
9,number,10,9,379,34,,,2018_Jan_27_1649,59.96000097209932,rsvp,001,1,
Q,letter,10,10,380,16,,,2018_Jan_27_1649,59.96000097209932,rsvp,001,1,
F,letter,10,11,381,5,,,2018_Jan_27_1649,59.96000097209932,rsvp,001,1,
W,letter,10,12,382,22,,,2018_Jan_27_1649,59.96000097209932,rsvp,001,1,
M,letter,10,13,383,12,,,2018_Jan_27_1649,59.96000097209932,rsvp,001,1,
K,letter,10,14,384,10,,,2018_Jan_27_1649,59.96000097209932,rsvp,001,1,
L,letter,10,15,385,11,,,2018_Jan_27_1649,59.96000097209932,rsvp,001,1,
None,blank,10,16,386,36,,,2018_Jan_27_1649,59.96000097209932,rsvp,001,1,
X,letter,10,17,387,23,,,2018_Jan_27_1649,59.96000097209932,rsvp,001,1,
H,letter,10,18,388,7,,,2018_Jan_27_1649,59.96000097209932,rsvp,001,1,
J,letter,10,19,389,9,,,2018_Jan_27_1649,59.96000097209932,rsvp,001,1,
U,letter,10,20,390,20,,,2018_Jan_27_1649,59.96000097209932,rsvp,001,1,
B,letter,10,21,391,1,,,2018_Jan_27_1649,59.96000097209932,rsvp,001,1,
3,number,10,22,392,28,,,2018_Jan_27_1649,59.96000097209932,rsvp,001,1,
S,letter,10,23,393,18,,,2018_Jan_27_1649,59.96000097209932,rsvp,001,1,
G,letter,10,24,394,6,,,2018_Jan_27_1649,59.96000097209932,rsvp,001,1,
A,letter,10,25,395,0,,,2018_Jan_27_1649,59.96000097209932,rsvp,001,1,
8,number,10,26,396,33,,,2018_Jan_27_1649,59.96000097209932,rsvp,001,1,
D,letter,10,27,397,3,,,2018_Jan_27_1649,59.96000097209932,rsvp,001,1,
V,letter,10,28,398,21,,,2018_Jan_27_1649,59.96000097209932,rsvp,001,1,
P,letter,10,29,399,15,,,2018_Jan_27_1649,59.96000097209932,rsvp,001,1,
2,number,10,30,400,27,,,2018_Jan_27_1649,59.96000097209932,rsvp,001,1,
Y,letter,10,31,401,24,,,2018_Jan_27_1649,59.96000097209932,rsvp,001,1,
7,number,10,32,402,32,,,2018_Jan_27_1649,59.96000097209932,rsvp,001,1,
R,letter,10,33,403,17,,,2018_Jan_27_1649,59.96000097209932,rsvp,001,1,
Z,letter,10,34,404,25,,,2018_Jan_27_1649,59.96000097209932,rsvp,001,1,
4,number,10,35,405,29,,,2018_Jan_27_1649,59.96000097209932,rsvp,001,1,
N,letter,10,36,406,13,,,2018_Jan_27_1649,59.96000097209932,rsvp,001,1,
F,letter,11,0,407,5,,,2018_Jan_27_1649,59.96000097209932,rsvp,001,1,
I,letter,11,1,408,8,,,2018_Jan_27_1649,59.96000097209932,rsvp,001,1,
Z,letter,11,2,409,25,,,2018_Jan_27_1649,59.96000097209932,rsvp,001,1,
U,letter,11,3,410,20,,,2018_Jan_27_1649,59.96000097209932,rsvp,001,1,
9,number,11,4,411,34,,,2018_Jan_27_1649,59.96000097209932,rsvp,001,1,
J,letter,11,5,412,9,,,2018_Jan_27_1649,59.96000097209932,rsvp,001,1,
probe,probe,11,6,413,35,,,2018_Jan_27_1649,59.96000097209932,rsvp,001,1,
5,number,11,7,414,30,,,2018_Jan_27_1649,59.96000097209932,rsvp,001,1,
P,letter,11,8,415,15,,,2018_Jan_27_1649,59.96000097209932,rsvp,001,1,
7,number,11,9,416,32,,,2018_Jan_27_1649,59.96000097209932,rsvp,001,1,
2,number,11,10,417,27,,,2018_Jan_27_1649,59.96000097209932,rsvp,001,1,
X,letter,11,11,418,23,,,2018_Jan_27_1649,59.96000097209932,rsvp,001,1,
8,number,11,12,419,33,,,2018_Jan_27_1649,59.96000097209932,rsvp,001,1,
T,letter,11,13,420,19,,,2018_Jan_27_1649,59.96000097209932,rsvp,001,1,
H,letter,11,14,421,7,,,2018_Jan_27_1649,59.96000097209932,rsvp,001,1,
1,number,11,15,422,26,,,2018_Jan_27_1649,59.96000097209932,rsvp,001,1,
L,letter,11,16,423,11,,,2018_Jan_27_1649,59.96000097209932,rsvp,001,1,
V,letter,11,17,424,21,,,2018_Jan_27_1649,59.96000097209932,rsvp,001,1,
A,letter,11,18,425,0,,,2018_Jan_27_1649,59.96000097209932,rsvp,001,1,
C,letter,11,19,426,2,,,2018_Jan_27_1649,59.96000097209932,rsvp,001,1,
R,letter,11,20,427,17,,,2018_Jan_27_1649,59.96000097209932,rsvp,001,1,
S,letter,11,21,428,18,,,2018_Jan_27_1649,59.96000097209932,rsvp,001,1,
B,letter,11,22,429,1,,,2018_Jan_27_1649,59.96000097209932,rsvp,001,1,
K,letter,11,23,430,10,,,2018_Jan_27_1649,59.96000097209932,rsvp,001,1,
N,letter,11,24,431,13,,,2018_Jan_27_1649,59.96000097209932,rsvp,001,1,
O,letter,11,25,432,14,,,2018_Jan_27_1649,59.96000097209932,rsvp,001,1,
Q,letter,11,26,433,16,,,2018_Jan_27_1649,59.96000097209932,rsvp,001,1,
D,letter,11,27,434,3,,,2018_Jan_27_1649,59.96000097209932,rsvp,001,1,
4,number,11,28,435,29,,,2018_Jan_27_1649,59.96000097209932,rsvp,001,1,
M,letter,11,29,436,12,,,2018_Jan_27_1649,59.96000097209932,rsvp,001,1,
3,number,11,30,437,28,,,2018_Jan_27_1649,59.96000097209932,rsvp,001,1,
None,blank,11,31,438,36,,,2018_Jan_27_1649,59.96000097209932,rsvp,001,1,
E,letter,11,32,439,4,,,2018_Jan_27_1649,59.96000097209932,rsvp,001,1,
G,letter,11,33,440,6,,,2018_Jan_27_1649,59.96000097209932,rsvp,001,1,
6,number,11,34,441,31,,,2018_Jan_27_1649,59.96000097209932,rsvp,001,1,
W,letter,11,35,442,22,,,2018_Jan_27_1649,59.96000097209932,rsvp,001,1,
Y,letter,11,36,443,24,,,2018_Jan_27_1649,59.96000097209932,rsvp,001,1,
D,letter,12,0,444,3,,,2018_Jan_27_1649,59.96000097209932,rsvp,001,1,
F,letter,12,1,445,5,,,2018_Jan_27_1649,59.96000097209932,rsvp,001,1,
Y,letter,12,2,446,24,,,2018_Jan_27_1649,59.96000097209932,rsvp,001,1,
I,letter,12,3,447,8,,,2018_Jan_27_1649,59.96000097209932,rsvp,001,1,
4,number,12,4,448,29,,,2018_Jan_27_1649,59.96000097209932,rsvp,001,1,
K,letter,12,5,449,10,,,2018_Jan_27_1649,59.96000097209932,rsvp,001,1,
C,letter,12,6,450,2,,,2018_Jan_27_1649,59.96000097209932,rsvp,001,1,
3,number,12,7,451,28,,,2018_Jan_27_1649,59.96000097209932,rsvp,001,1,
V,letter,12,8,452,21,,,2018_Jan_27_1649,59.96000097209932,rsvp,001,1,
O,letter,12,9,453,14,,,2018_Jan_27_1649,59.96000097209932,rsvp,001,1,
None,blank,12,10,454,36,,,2018_Jan_27_1649,59.96000097209932,rsvp,001,1,
Q,letter,12,11,455,16,,,2018_Jan_27_1649,59.96000097209932,rsvp,001,1,
M,letter,12,12,456,12,,,2018_Jan_27_1649,59.96000097209932,rsvp,001,1,
E,letter,12,13,457,4,,,2018_Jan_27_1649,59.96000097209932,rsvp,001,1,
9,number,12,14,458,34,,,2018_Jan_27_1649,59.96000097209932,rsvp,001,1,
6,number,12,15,459,31,,,2018_Jan_27_1649,59.96000097209932,rsvp,001,1,
8,number,12,16,460,33,,,2018_Jan_27_1649,59.96000097209932,rsvp,001,1,
P,letter,12,17,461,15,,,2018_Jan_27_1649,59.96000097209932,rsvp,001,1,
1,number,12,18,462,26,,,2018_Jan_27_1649,59.96000097209932,rsvp,001,1,
A,letter,12,19,463,0,,,2018_Jan_27_1649,59.96000097209932,rsvp,001,1,
W,letter,12,20,464,22,,,2018_Jan_27_1649,59.96000097209932,rsvp,001,1,
H,letter,12,21,465,7,,,2018_Jan_27_1649,59.96000097209932,rsvp,001,1,
G,letter,12,22,466,6,,,2018_Jan_27_1649,59.96000097209932,rsvp,001,1,
L,letter,12,23,467,11,,,2018_Jan_27_1649,59.96000097209932,rsvp,001,1,
probe,probe,12,24,468,35,,,2018_Jan_27_1649,59.96000097209932,rsvp,001,1,
2,number,12,25,469,27,,,2018_Jan_27_1649,59.96000097209932,rsvp,001,1,
B,letter,12,26,470,1,,,2018_Jan_27_1649,59.96000097209932,rsvp,001,1,
Z,letter,12,27,471,25,,,2018_Jan_27_1649,59.96000097209932,rsvp,001,1,
X,letter,12,28,472,23,,,2018_Jan_27_1649,59.96000097209932,rsvp,001,1,
5,number,12,29,473,30,,,2018_Jan_27_1649,59.96000097209932,rsvp,001,1,
T,letter,12,30,474,19,,,2018_Jan_27_1649,59.96000097209932,rsvp,001,1,
U,letter,12,31,475,20,,,2018_Jan_27_1649,59.96000097209932,rsvp,001,1,
R,letter,12,32,476,17,,,2018_Jan_27_1649,59.96000097209932,rsvp,001,1,
7,number,12,33,477,32,,,2018_Jan_27_1649,59.96000097209932,rsvp,001,1,
N,letter,12,34,478,13,,,2018_Jan_27_1649,59.96000097209932,rsvp,001,1,
S,letter,12,35,479,18,,,2018_Jan_27_1649,59.96000097209932,rsvp,001,1,
J,letter,12,36,480,9,,,2018_Jan_27_1649,59.96000097209932,rsvp,001,1,
5,number,13,0,481,30,,,2018_Jan_27_1649,59.96000097209932,rsvp,001,1,
W,letter,13,1,482,22,,,2018_Jan_27_1649,59.96000097209932,rsvp,001,1,
O,letter,13,2,483,14,,,2018_Jan_27_1649,59.96000097209932,rsvp,001,1,
4,number,13,3,484,29,,,2018_Jan_27_1649,59.96000097209932,rsvp,001,1,
S,letter,13,4,485,18,,,2018_Jan_27_1649,59.96000097209932,rsvp,001,1,
C,letter,13,5,486,2,,,2018_Jan_27_1649,59.96000097209932,rsvp,001,1,
P,letter,13,6,487,15,,,2018_Jan_27_1649,59.96000097209932,rsvp,001,1,
B,letter,13,7,488,1,,,2018_Jan_27_1649,59.96000097209932,rsvp,001,1,
1,number,13,8,489,26,,,2018_Jan_27_1649,59.96000097209932,rsvp,001,1,
probe,probe,13,9,490,35,,,2018_Jan_27_1649,59.96000097209932,rsvp,001,1,
9,number,13,10,491,34,,,2018_Jan_27_1649,59.96000097209932,rsvp,001,1,
Z,letter,13,11,492,25,,,2018_Jan_27_1649,59.96000097209932,rsvp,001,1,
I,letter,13,12,493,8,,,2018_Jan_27_1649,59.96000097209932,rsvp,001,1,
G,letter,13,13,494,6,,,2018_Jan_27_1649,59.96000097209932,rsvp,001,1,
E,letter,13,14,495,4,,,2018_Jan_27_1649,59.96000097209932,rsvp,001,1,
L,letter,13,15,496,11,,,2018_Jan_27_1649,59.96000097209932,rsvp,001,1,
R,letter,13,16,497,17,,,2018_Jan_27_1649,59.96000097209932,rsvp,001,1,
3,number,13,17,498,28,,,2018_Jan_27_1649,59.96000097209932,rsvp,001,1,
U,letter,13,18,499,20,,,2018_Jan_27_1649,59.96000097209932,rsvp,001,1,
J,letter,13,19,500,9,,,2018_Jan_27_1649,59.96000097209932,rsvp,001,1,
6,number,13,20,501,31,,,2018_Jan_27_1649,59.96000097209932,rsvp,001,1,
H,letter,13,21,502,7,,,2018_Jan_27_1649,59.96000097209932,rsvp,001,1,
A,letter,13,22,503,0,,,2018_Jan_27_1649,59.96000097209932,rsvp,001,1,
K,letter,13,23,504,10,,,2018_Jan_27_1649,59.96000097209932,rsvp,001,1,
Y,letter,13,24,505,24,,,2018_Jan_27_1649,59.96000097209932,rsvp,001,1,
Q,letter,13,25,506,16,,,2018_Jan_27_1649,59.96000097209932,rsvp,001,1,
D,letter,13,26,507,3,,,2018_Jan_27_1649,59.96000097209932,rsvp,001,1,
2,number,13,27,508,27,,,2018_Jan_27_1649,59.96000097209932,rsvp,001,1,
X,letter,13,28,509,23,,,2018_Jan_27_1649,59.96000097209932,rsvp,001,1,
F,letter,13,29,510,5,,,2018_Jan_27_1649,59.96000097209932,rsvp,001,1,
N,letter,13,30,511,13,,,2018_Jan_27_1649,59.96000097209932,rsvp,001,1,
M,letter,13,31,512,12,,,2018_Jan_27_1649,59.96000097209932,rsvp,001,1,
7,number,13,32,513,32,,,2018_Jan_27_1649,59.96000097209932,rsvp,001,1,
T,letter,13,33,514,19,,,2018_Jan_27_1649,59.96000097209932,rsvp,001,1,
None,blank,13,34,515,36,,,2018_Jan_27_1649,59.96000097209932,rsvp,001,1,
V,letter,13,35,516,21,,,2018_Jan_27_1649,59.96000097209932,rsvp,001,1,
8,number,13,36,517,33,,,2018_Jan_27_1649,59.96000097209932,rsvp,001,1,
U,letter,14,0,518,20,,,2018_Jan_27_1649,59.96000097209932,rsvp,001,1,
None,blank,14,1,519,36,,,2018_Jan_27_1649,59.96000097209932,rsvp,001,1,
T,letter,14,2,520,19,,,2018_Jan_27_1649,59.96000097209932,rsvp,001,1,
D,letter,14,3,521,3,,,2018_Jan_27_1649,59.96000097209932,rsvp,001,1,
Y,letter,14,4,522,24,,,2018_Jan_27_1649,59.96000097209932,rsvp,001,1,
M,letter,14,5,523,12,,,2018_Jan_27_1649,59.96000097209932,rsvp,001,1,
Z,letter,14,6,524,25,,,2018_Jan_27_1649,59.96000097209932,rsvp,001,1,
1,number,14,7,525,26,,,2018_Jan_27_1649,59.96000097209932,rsvp,001,1,
E,letter,14,8,526,4,,,2018_Jan_27_1649,59.96000097209932,rsvp,001,1,
G,letter,14,9,527,6,,,2018_Jan_27_1649,59.96000097209932,rsvp,001,1,
V,letter,14,10,528,21,,,2018_Jan_27_1649,59.96000097209932,rsvp,001,1,
W,letter,14,11,529,22,,,2018_Jan_27_1649,59.96000097209932,rsvp,001,1,
K,letter,14,12,530,10,,,2018_Jan_27_1649,59.96000097209932,rsvp,001,1,
9,number,14,13,531,34,,,2018_Jan_27_1649,59.96000097209932,rsvp,001,1,
B,letter,14,14,532,1,,,2018_Jan_27_1649,59.96000097209932,rsvp,001,1,
probe,probe,14,15,533,35,,,2018_Jan_27_1649,59.96000097209932,rsvp,001,1,
3,number,14,16,534,28,,,2018_Jan_27_1649,59.96000097209932,rsvp,001,1,
I,letter,14,17,535,8,,,2018_Jan_27_1649,59.96000097209932,rsvp,001,1,
8,number,14,18,536,33,,,2018_Jan_27_1649,59.96000097209932,rsvp,001,1,
5,number,14,19,537,30,,,2018_Jan_27_1649,59.96000097209932,rsvp,001,1,
Q,letter,14,20,538,16,,,2018_Jan_27_1649,59.96000097209932,rsvp,001,1,
R,letter,14,21,539,17,,,2018_Jan_27_1649,59.96000097209932,rsvp,001,1,
P,letter,14,22,540,15,,,2018_Jan_27_1649,59.96000097209932,rsvp,001,1,
F,letter,14,23,541,5,,,2018_Jan_27_1649,59.96000097209932,rsvp,001,1,
N,letter,14,24,542,13,,,2018_Jan_27_1649,59.96000097209932,rsvp,001,1,
L,letter,14,25,543,11,,,2018_Jan_27_1649,59.96000097209932,rsvp,001,1,
C,letter,14,26,544,2,,,2018_Jan_27_1649,59.96000097209932,rsvp,001,1,
4,number,14,27,545,29,,,2018_Jan_27_1649,59.96000097209932,rsvp,001,1,
A,letter,14,28,546,0,,,2018_Jan_27_1649,59.96000097209932,rsvp,001,1,
S,letter,14,29,547,18,,,2018_Jan_27_1649,59.96000097209932,rsvp,001,1,
X,letter,14,30,548,23,,,2018_Jan_27_1649,59.96000097209932,rsvp,001,1,
O,letter,14,31,549,14,,,2018_Jan_27_1649,59.96000097209932,rsvp,001,1,
2,number,14,32,550,27,,,2018_Jan_27_1649,59.96000097209932,rsvp,001,1,
J,letter,14,33,551,9,,,2018_Jan_27_1649,59.96000097209932,rsvp,001,1,
7,number,14,34,552,32,,,2018_Jan_27_1649,59.96000097209932,rsvp,001,1,
H,letter,14,35,553,7,,,2018_Jan_27_1649,59.96000097209932,rsvp,001,1,
6,number,14,36,554,31,,,2018_Jan_27_1649,59.96000097209932,rsvp,001,1,
